File: Data/Rail_Frame.dat
Date/Time: 3/4/2016 3:02:21 PM
Material:  Al 6061 T6
Time (ms)	Displacement (um)	Load (N)
0	0.000000	14.1472
326	4.000000	13.6064
726	8.000000	14.1693
1126	12	15.221
1526	16	17.7101
1926	20	23.7751
2326	24	30.626
2726	28	36.0317
3126	32	40.7049
3526	36	44.9494
3926	40	49.9093
4326	44	54.9031
4726	48	59.029
5126	52	63.1119
5526	56	67.9598
5926	60	72.6396
6326	64	76.841
6726	68	81.0334
7126	72	85.3157
7526	76	89.5993
7926	80	94.0275
8326	84	98.0322
8726	88	102.056
9126	92	106.861
9526	96	111.266
9926	100	115.215
10326	104	119.294
10726	108	123.921
11126	112	128.291
11526	116	132.292
11926	120	136.409
12326	124	140.786
12726	128	145.027
13126	132	148.703
13526	136	152.086
13926	140	156.048
14326	144	159.983
14726	148	163.516
15126	152	167.269
15526	156	171.166
15926	160	175.156
16326	164	178.427
16726	168	181.521
17126	172	184.968
17526	176	188.431
17926	180	191.781
18326	184	194.801
18726	188	197.924
19126	192	201.208
19526	196	204.158
19926	200	206.588
20326	204	208.915
20726	208	211.481
21126	212	214.072
21526	216	216.208
21926	220	218.318
22326	224	220.82
22726	228	223.301
23126	232	225.01
23526	236	227.324
23926	240	229.426
24326	244	231.582
24726	248	233.226
25126	252	235.012
25526	256	237.145
25926	260	239.259
26326	264	240.853
26726	268	242.449
27126	272	244.205
27526	276	245.78
27926	280	247.395
28326	284	248.436
28726	288	249.103
29126	292	250.475
29526	296	251.897
29926	300	252.726
30326	304	253.496
30726	308	254.922
31126	312	255.881
31526	316	256.744
31926	320	257.591
32326	324	258.613
32726	328	260.2
33126	332	261.395
33526	336	262.29
33926	340	263.457
34326	344	264.951
34726	348	266.122
35126	352	267.307
35526	356	269.514
35926	360	271.362
36326	364	273.268
36726	368	274.788
37126	372	276.504
37526	376	278.73
37926	380	280.256
38326	384	281.661
38726	388	283.375
39126	392	285.4
39526	396	286.857
39926	400	288.354
40326	404	290.438
40726	408	292.627
41126	412	294.615
41526	416	296.266
41926	420	298.382
42326	424	300.747
42726	428	303.104
43126	432	305.212
43526	436	307.282
43926	440	310.082
44326	444	312.154
44726	448	314.26
45126	452	316.266
45526	456	318.327
45926	460	321.047
46326	464	323.283
46726	468	325.246
47126	472	327.577
47526	476	330.315
47926	480	332.584
48326	484	334.697
48726	488	336.99
49126	492	339.408
49526	496	341.253
49926	500	343.251
50326	504	345.281
50726	508	347.779
51126	512	349.78
51526	516	351.921
51926	520	353.874
52326	524	356.386
52726	528	358.537
53126	532	360.254
53526	536	362.218
53926	540	364.601
54326	544	366.6
54726	548	368.374
55126	552	370.415
55526	556	372.219
55926	560	374.61
56326	564	376.624
56726	568	378.444
57126	572	381.034
57526	576	382.967
57926	580	384.941
58326	584	386.284
58726	588	388.036
59126	592	390.297
59526	596	391.84
59926	600	393.609
60326	604	395.494
60726	608	397.509
61126	612	399.304
61526	616	400.849
61926	620	402.599
62326	624	404.476
62726	628	406.11
63126	632	407.499
63526	636	408.713
63926	640	408.687
64326	644	408.743
64726	648	409.486
65126	652	410.88
65526	656	413.36
65926	660	417.53
66326	664	419.461
66726	668	421.428
67126	672	423.178
67526	676	425.111
67926	680	426.583
68326	684	428.515
68726	688	430.184
69126	692	431.831
69526	696	433.128
69926	700	434.679
70326	704	436.274
70726	708	437.298
71126	712	438.483
71526	716	440.024
71926	720	441.089
72326	724	443.088
72726	728	444.934
73126	732	445.968
73526	736	447.563
73926	740	449.611
74326	744	450.902
74726	748	452.337
75126	752	454.266
75526	756	455.985
75926	760	457.704
76326	764	458.831
76726	768	460.284
77126	772	461.923
77526	776	463.655
77926	780	465.078
78326	784	466.606
78726	788	468.112
79126	792	469.689
79526	796	471.029
79926	800	472.213
80326	804	473.445
80726	808	475.158
81126	812	476.077
81526	816	477.363
81926	820	478.952
82326	824	480.581
82726	828	481.697
83126	832	483.092
83526	836	484.325
83926	840	486.051
84326	844	487.504
84726	848	488.375
85126	852	489.597
85526	856	491.319
85926	860	492.375
86326	864	493.102
86726	868	493.662
87126	872	495.424
87526	876	496.949
87926	880	498.366
88326	884	499.773
88726	888	501.581
89126	892	503.455
89526	896	504.487
89926	900	505.945
90326	904	507.579
90726	908	509.011
91126	912	510.332
91526	916	511.57
91926	920	513.139
92326	924	514.912
92726	928	516.432
93126	932	517.263
93526	936	519.228
93926	940	520.593
94326	944	521.871
94726	948	523.12
95126	952	524.436
95526	956	526.292
95926	960	527.599
96326	964	528.914
96726	968	530.751
97126	972	532.225
97526	976	533.573
97926	980	534.631
98326	984	536.145
98726	988	537.861
99126	992	539.506
99526	996	540.994
99926	1000	542.056
100326	1004	543.803
100726	1008	544.788
101126	1012	545.127
101526	1016	545.133
101926	1020	546.044
102326	1024	547.145
102726	1028	547.961
103126	1032	550.777
103526	1036	554.063
103926	1040	556.04
104326	1044	557.603
104726	1048	559.175
105126	1052	560.794
105526	1056	562.537
105926	1060	563.898
106326	1064	565.098
106726	1068	566.848
107126	1072	568.571
107526	1076	570.037
107926	1080	571.471
108326	1084	572.813
108726	1088	574.606
109126	1092	576.062
109526	1096	577.304
109926	1100	578.985
110326	1104	580.336
110726	1108	582.144
111126	1112	583.228
111526	1116	584.659
111926	1120	586.179
112326	1124	587.828
112726	1128	589.253
113126	1132	590.456
113526	1136	592.032
113926	1140	593.489
114326	1144	594.668
114726	1148	595.907
115126	1152	597.495
115526	1156	599.352
115926	1160	600.459
116326	1164	601.758
116726	1168	603.263
117126	1172	605.178
117526	1176	606.679
117926	1180	607.853
118326	1184	609.397
118726	1188	611.033
119126	1192	612.532
119526	1196	613.684
119926	1200	615.237
120326	1204	616.807
120726	1208	618.164
121126	1212	619.579
121526	1216	620.919
121926	1220	622.597
122326	1224	623.916
122726	1228	625.274
123126	1232	626.858
123526	1236	628.14
123926	1240	629.898
124326	1244	631.076
124726	1248	632.306
125126	1252	633.865
125526	1256	635.61
125926	1260	636.78
126326	1264	638.031
126726	1268	639.703
127126	1272	641.107
127526	1276	642.419
127926	1280	643.451
128326	1284	644.954
128726	1288	646.405
129126	1292	647.713
129526	1296	648.992
129926	1300	650.316
130326	1304	652.042
130726	1308	653.346
131126	1312	654.696
131526	1316	655.914
131926	1320	657.519
132326	1324	658.913
132726	1328	659.979
133126	1332	661.315
133526	1336	662.618
133926	1340	663.902
134326	1344	665.119
134726	1348	666.398
135126	1352	668.045
135526	1356	669.537
135926	1360	670.494
136326	1364	671.554
136726	1368	672.835
137126	1372	674.251
137526	1376	675.451
137926	1380	676.466
138326	1384	677.878
138726	1388	679.367
139126	1392	680.582
139526	1396	681.507
139926	1400	682.664
140326	1404	684.043
140726	1408	685.213
141126	1412	686.323
141526	1416	687.558
141926	1420	689.025
142326	1424	689.721
142726	1428	690.74
143126	1432	691.912
143526	1436	693.104
143926	1440	694.32
144326	1444	695.227
144726	1448	696.406
145126	1452	697.438
145526	1456	698.744
145926	1460	699.43
146326	1464	700.518
146726	1468	701.962
147126	1472	702.818
147526	1476	703.427
147926	1480	704.184
148326	1484	705.585
148726	1488	706.781
149126	1492	707.311
149526	1496	708.265
149926	1500	709.004
150326	1504	710.245
150726	1508	710.942
151126	1512	711.532
151526	1516	712.476
151926	1520	713.612
152326	1524	714.278
152726	1528	714.759
153126	1532	715.661
153526	1536	716.444
153926	1540	717.08
154326	1544	717.475
154726	1548	718.082
155126	1552	719.095
155526	1556	719.524
155926	1560	719.987
156326	1564	720.64
156726	1568	721.51
157126	1572	722.114
157526	1576	722.251
157926	1580	722.959
158326	1584	723.463
158726	1588	724.102
159126	1592	724.43
159526	1596	724.953
159926	1600	725.396
160326	1604	725.917
160726	1608	726.195
161126	1612	726.498
161526	1616	727.117
161926	1620	727.616
162326	1624	728.099
162726	1628	728.156
163126	1632	728.634
163526	1636	729.232
163926	1640	729.548
164326	1644	729.413
164726	1648	729.907
165126	1652	730.522
165526	1656	730.555
165926	1660	730.92
166326	1664	731.367
166726	1668	731.8
167126	1672	731.556
167526	1676	731.616
167926	1680	732.037
168326	1684	732.611
168726	1688	732.765
169126	1692	733.116
169526	1696	733.466
169926	1700	734.227
170326	1704	734.373
170726	1708	734.293
171126	1712	734.525
171526	1716	735.061
171926	1720	735.3
172326	1724	735.088
172726	1728	735.218
173126	1732	735.78
173526	1736	735.829
173926	1740	736.087
174326	1744	736.303
174726	1748	736.905
175126	1752	737.174
175526	1756	737.515
175926	1760	737.33
176326	1764	737.867
176726	1768	738.299
177126	1772	738.278
177526	1776	738.349
177926	1780	738.723
178326	1784	739.017
178726	1788	738.962
179126	1792	738.86
179526	1796	739.547
179926	1800	740.192
180326	1804	740.265
180726	1808	740.379
181126	1812	740.418
181526	1816	740.663
181926	1820	740.785
182326	1824	740.652
182726	1828	740.852
183126	1832	741.807
183526	1836	742.224
183926	1840	742.013
184326	1844	742.224
184726	1848	742.332
185126	1852	742.568
185526	1856	742.756
185926	1860	742.872
186326	1864	743.377
186726	1868	743.388
187126	1872	743.16
187526	1876	743.483
187926	1880	743.893
188326	1884	744.438
188726	1888	744.652
189126	1892	744.357
189526	1896	744.601
189926	1900	745.062
190326	1904	745.078
190726	1908	745.318
191126	1912	745.809
191526	1916	746.079
191926	1920	746.436
192326	1924	746.129
192726	1928	746.546
193126	1932	746.956
193526	1936	746.923
193926	1940	746.88
194326	1944	747.116
194726	1948	747.457
195126	1952	747.602
195526	1956	747.503
195926	1960	747.556
196326	1964	747.924
196726	1968	748.089
197126	1972	747.869
197526	1976	747.95
197926	1980	748.461
198326	1984	748.896
198726	1988	748.735
199126	1992	748.862
199526	1996	748.888
199926	2000	749.201
200326	2004	749.952
200726	2008	750.113
201126	2012	750.813
201526	2016	751.31
201926	2020	751.718
202326	2024	751.495
202726	2028	751.645
203126	2032	751.959
203526	2036	752.026
203926	2040	752.072
204326	2044	752.175
204726	2048	752.876
205126	2052	752.931
205526	2056	752.734
205926	2060	752.989
206326	2064	753.104
206726	2068	753.281
207126	2072	752.902
207526	2076	752.896
207926	2080	752.905
208326	2084	752.829
208726	2088	752.698
209126	2092	752.168
209526	2096	752.286
209926	2100	752.771
210326	2104	752.982
210727	2108	753.435
211126	2112	754.428
211526	2116	755.727
211926	2120	756.103
212326	2124	756.323
212726	2128	756.602
213126	2132	756.992
213526	2136	757.07
213926	2140	756.878
214326	2144	756.992
214726	2148	757.414
215126	2152	757.8
215526	2156	757.536
215926	2160	757.642
216326	2164	757.85
216726	2168	757.871
217126	2172	757.918
217526	2176	758.024
217926	2180	758.404
218326	2184	758.512
218726	2188	758.442
219126	2192	758.811
219526	2196	758.955
219926	2200	759.185
220326	2204	758.897
220726	2208	759.019
221126	2212	759.409
221526	2216	759.959
221926	2220	760.106
222326	2224	760.074
222726	2228	760.603
223126	2232	760.944
223526	2236	760.803
223926	2240	760.665
224326	2244	760.672
224726	2248	761.171
225126	2252	761.101
225526	2256	761.691
225926	2260	762.023
226326	2264	762.451
226726	2268	762.683
227126	2272	762.576
227526	2276	762.616
227926	2280	762.638
228326	2284	763.032
228726	2288	762.816
229126	2292	762.896
229526	2296	763.441
229926	2300	763.62
230326	2304	763.723
230726	2308	763.9
231126	2312	764.477
231526	2316	764.587
231926	2320	764.334
232326	2324	764.583
232726	2328	764.69
233126	2332	765.47
233526	2336	765.522
233926	2340	765.491
234326	2344	765.604
234726	2348	766.101
235126	2352	766.058
235526	2356	766.07
235926	2360	766.449
236326	2364	767.183
236726	2368	767.265
237126	2372	766.939
237526	2376	767.116
237926	2380	767.435
238326	2384	767.502
238726	2388	767.579
239126	2392	767.786
239526	2396	768.32
239926	2400	768.483
240326	2404	768.186
240726	2408	768.333
241126	2412	768.719
241526	2416	769.058
241926	2420	768.947
242326	2424	769.251
242726	2428	769.712
243126	2432	769.828
243526	2436	769.748
243926	2440	769.588
244326	2444	770.167
244726	2448	770.463
245126	2452	770.723
245526	2456	770.812
245926	2460	770.825
246326	2464	771.282
246726	2468	771.44
247126	2472	771.469
247526	2476	771.527
247926	2480	771.149
248326	2484	768.497
248726	2488	765.336
249126	2492	764.189
249526	2496	764.607
249926	2500	765.776
250326	2504	767.137
250726	2508	770.119
251126	2512	772.535
251526	2516	774.011
251926	2520	774.332
252326	2524	774.66
252726	2528	775.195
253126	2532	775.217
253526	2536	775.142
253926	2540	774.959
254326	2544	775.052
254726	2548	775.284
255126	2552	774.794
255526	2556	774.841
255926	2560	775.003
256326	2564	775.145
256726	2568	775.204
257126	2572	775.275
257526	2576	775.807
257926	2580	776.051
258326	2584	775.966
258726	2588	775.696
259126	2592	775.729
259526	2596	776.09
259926	2600	775.885
260326	2604	775.975
260726	2608	776.18
261126	2612	776.807
261526	2616	776.883
261926	2620	776.543
262326	2624	776.674
262726	2628	777.023
263126	2632	777.478
263526	2636	777.138
263926	2640	777.368
264326	2644	777.833
264726	2648	778.017
265126	2652	778.045
265526	2656	778.076
265926	2660	778.344
266326	2664	778.618
266726	2668	778.558
267126	2672	778.873
267526	2676	779.112
267926	2680	779.547
268326	2684	779.303
268726	2688	779.301
269126	2692	779.3
269526	2696	779.634
269926	2700	779.919
270326	2704	779.745
270726	2708	779.993
271126	2712	780.381
271526	2716	780.478
271926	2720	780.171
272326	2724	780.333
272726	2728	780.906
273126	2732	781.003
273526	2736	781.034
273926	2740	780.926
274326	2744	781.398
274726	2748	781.626
275126	2752	781.524
275526	2756	781.549
275926	2760	781.974
276326	2764	782.329
276726	2768	782.219
277126	2772	782.518
277526	2776	782.582
277926	2780	782.826
278326	2784	782.994
278726	2788	783.213
279126	2792	783.53
279526	2796	783.72
279926	2800	783.528
280326	2804	783.369
280726	2808	783.582
281126	2812	783.998
281526	2816	783.882
281926	2820	783.788
282326	2824	783.827
282726	2828	784.475
283126	2832	784.733
283526	2836	784.635
283926	2840	784.799
284326	2844	784.918
284726	2848	785.146
285126	2852	784.983
285526	2856	785.139
285926	2860	785.61
286326	2864	785.843
286726	2868	785.8
287126	2872	785.904
287526	2876	786.392
287926	2880	786.325
288326	2884	786.261
288726	2888	786.419
289126	2892	786.833
289526	2896	787.16
289926	2900	786.887
290326	2904	786.799
290726	2908	786.893
291126	2912	787.269
291526	2916	787.318
291926	2920	787.157
292326	2924	787.431
292726	2928	787.581
293126	2932	787.566
293526	2936	787.811
293926	2940	787.983
294326	2944	788.449
294726	2948	788.229
295126	2952	788.293
295526	2956	788.228
295926	2960	788.525
296326	2964	788.564
296726	2968	787.804
297126	2972	786.952
297526	2976	785.349
297926	2980	784.361
298326	2984	784.106
298726	2988	785.065
299126	2992	786.356
299526	2996	788.348
299926	3000	789.127
300326	3004	789.965
300726	3008	790.761
301126	3012	791.084
301526	3016	790.977
301926	3020	791.267
302326	3024	791.342
302726	3028	791.634
303126	3032	791.336
303526	3036	791.262
303926	3040	791.319
304326	3044	791.673
304726	3048	791.783
305126	3052	791.344
305526	3056	791.387
305926	3060	791.818
306326	3064	791.947
306726	3068	791.725
307126	3072	791.998
307526	3076	792.547
307926	3080	792.483
308326	3084	792.258
308726	3088	792.247
309126	3092	792.567
309526	3096	792.312
309926	3100	792.368
310326	3104	792.651
310726	3108	792.768
311126	3112	792.848
311526	3116	792.626
311926	3120	792.44
312326	3124	792.827
312726	3128	792.867
313126	3132	792.734
313526	3136	792.859
313926	3140	793.691
314326	3144	793.954
314726	3148	793.757
315126	3152	793.599
315526	3156	793.665
315926	3160	793.977
316326	3164	794.037
316726	3168	794.024
317126	3172	793.959
317526	3176	794.738
317926	3180	794.844
318326	3184	794.547
318726	3188	794.728
319126	3192	794.75
319526	3196	794.862
319926	3200	794.673
320326	3204	795.025
320726	3208	795.754
321126	3212	795.503
321526	3216	795.377
321926	3220	795.283
322326	3224	795.737
322726	3228	795.372
323126	3232	795.451
323526	3236	795.304
323926	3240	795.694
324326	3244	795.954
324726	3248	795.879
325126	3252	795.847
325526	3256	796.082
325926	3260	796.332
326326	3264	796.313
326726	3268	796.392
327126	3272	796.904
327526	3276	797.125
327926	3280	796.928
328326	3284	796.625
328726	3288	796.708
329126	3292	797.314
329526	3296	797.14
329926	3300	797.144
330326	3304	797.168
330726	3308	797.432
331126	3312	797.708
331526	3316	797.572
331926	3320	797.768
332326	3324	797.912
332726	3328	797.966
333126	3332	797.566
333526	3336	797.587
333926	3340	797.835
334326	3344	797.959
334726	3348	798.132
335126	3352	798.34
335526	3356	798.794
335926	3360	798.776
336326	3364	798.734
336726	3368	798.494
337126	3372	798.618
337526	3376	798.873
337926	3380	798.849
338326	3384	798.883
338726	3388	798.957
339126	3392	799.367
339526	3396	799.262
339926	3400	799.016
340326	3404	799.58
340726	3408	799.803
341126	3412	799.727
341526	3416	799.374
341926	3420	799.765
342326	3424	800.196
342726	3428	800.033
343126	3432	799.938
343526	3436	799.981
343926	3440	800.121
344326	3444	800.273
344726	3448	800.117
345126	3452	800.379
345526	3456	800.704
345926	3460	800.905
346326	3464	800.476
346726	3468	800.698
347126	3472	800.991
347526	3476	801.148
347926	3480	800.939
348326	3484	800.768
348726	3488	801.068
349126	3492	801.346
349526	3496	801.155
349926	3500	801.171
350326	3504	801.209
350726	3508	801.613
351126	3512	801.262
351526	3516	801.475
351926	3520	801.609
352326	3524	802.09
352726	3528	802.246
353126	3532	802.001
353526	3536	802.025
353926	3540	802
354326	3544	801.962
354726	3548	801.743
355126	3552	801.972
355526	3556	802.254
355926	3560	802.285
356326	3564	802.433
356726	3568	802.542
357126	3572	802.86
357526	3576	802.748
357926	3580	802.576
358326	3584	802.56
358726	3588	802.76
359126	3592	802.955
359526	3596	802.823
359926	3600	802.95
360326	3604	803.091
360726	3608	803.181
361126	3612	803.257
361526	3616	802.907
361926	3620	803.178
362326	3624	803.281
362726	3628	803.32
363126	3632	803.3
363526	3636	803.624
363926	3640	803.687
364326	3644	803.379
364726	3648	803.328
365126	3652	803.329
365526	3656	803.635
365926	3660	803.634
366326	3664	803.626
366726	3668	804.257
367126	3672	804.209
367526	3676	804.273
367926	3680	803.9
368326	3684	804.047
368726	3688	804.497
369126	3692	804.538
369526	3696	804.36
369926	3700	804.339
370326	3704	804.717
370726	3708	804.812
371126	3712	804.357
371526	3716	804.823
371926	3720	805.159
372326	3724	805.174
372726	3728	804.799
373126	3732	804.653
373526	3736	804.855
373926	3740	805.305
374326	3744	804.952
374726	3748	804.785
375126	3752	805.055
375526	3756	805.018
375926	3760	805.005
376326	3764	804.79
376726	3768	805.047
377126	3772	805.526
377526	3776	805.328
377926	3780	805.228
378326	3784	805.164
378726	3788	805.558
379126	3792	805.56
379526	3796	805.507
379926	3800	805.676
380326	3804	805.76
380726	3808	806.139
381126	3812	806.106
381526	3816	806.081
381926	3820	806.261
382326	3824	806.286
382726	3828	806.23
383126	3832	806.098
383526	3836	806.246
383926	3840	806.345
384326	3844	806.117
384726	3848	806.08
385126	3852	806.197
385526	3856	806.498
385926	3860	806.135
386326	3864	806.102
386726	3868	806.188
387126	3872	806.581
387526	3876	806.528
387926	3880	806.467
388326	3884	806.753
388726	3888	806.814
389126	3892	806.756
389526	3896	806.635
389926	3900	806.548
390326	3904	806.811
390726	3908	806.728
391126	3912	806.564
391526	3916	806.695
391926	3920	807.246
392326	3924	807.222
392726	3928	807.196
393126	3932	807.058
393526	3936	807.131
393926	3940	807.329
394326	3944	807.008
394726	3948	807.125
395126	3952	807.373
395526	3956	807.596
395926	3960	807.289
396326	3964	806.972
396726	3968	807.286
397126	3972	807.3
397526	3976	807.22
397926	3980	807.366
398326	3984	807.454
398726	3988	807.641
399126	3992	807.507
399526	3996	807.377
399926	4000	807.536
400326	4004	807.772
400726	4008	807.708
401126	4012	807.592
401526	4016	807.989
401926	4020	808.122
402326	4024	808.206
402726	4028	807.764
403126	4032	807.829
403526	4036	808.006
403926	4040	807.953
404326	4044	807.971
404726	4048	807.871
405126	4052	808.172
405526	4056	808.228
405926	4060	807.98
406326	4064	807.952
406726	4068	808.036
407126	4072	808.238
407526	4076	807.976
407926	4080	807.842
408326	4084	807.946
408726	4088	808.349
409126	4092	808.517
409526	4096	808.229
409926	4100	808.672
410326	4104	808.606
410726	4108	808.465
411126	4112	808.251
411526	4116	808.533
411926	4120	808.594
412326	4124	808.375
412726	4128	808.503
413126	4132	808.754
413526	4136	808.714
413926	4140	808.55
414326	4144	808.359
414726	4148	808.479
415126	4152	808.885
415526	4156	808.795
415926	4160	808.688
416326	4164	808.67
416726	4168	808.865
417126	4172	808.862
417526	4176	808.642
417926	4180	808.641
418326	4184	809.023
418726	4188	809.031
419126	4192	808.804
419526	4196	808.646
419926	4200	808.911
420326	4204	809.07
420726	4208	808.713
421126	4212	808.718
421526	4216	808.793
421926	4220	809.084
422326	4224	808.976
422726	4228	809.008
423126	4232	809.358
423526	4236	809.5
423926	4240	809.504
424326	4244	809.158
424726	4248	809.152
425126	4252	809.535
425526	4256	809.393
425926	4260	809.255
426326	4264	809.311
426726	4268	809.613
427126	4272	809.624
427526	4276	809.368
427926	4280	809.291
428326	4284	809.504
428726	4288	809.65
429126	4292	809.213
429526	4296	809.494
429926	4300	809.579
430326	4304	809.403
430726	4308	809.161
431126	4312	809.157
431526	4316	809.446
431926	4320	809.61
432326	4324	809.397
432726	4328	809.238
433126	4332	809.248
433526	4336	809.747
433926	4340	809.574
434326	4344	809.657
434726	4348	809.626
435126	4352	809.958
435526	4356	809.981
435926	4360	809.578
436326	4364	809.882
436726	4368	810.004
437126	4372	809.897
437526	4376	809.599
437926	4380	809.655
438326	4384	809.939
438726	4388	809.746
439126	4392	809.66
439526	4396	809.492
439926	4400	810.004
440326	4404	810.013
440726	4408	809.672
441126	4412	809.687
441526	4416	809.767
441926	4420	810.013
442326	4424	809.621
442726	4428	809.696
443126	4432	809.823
443526	4436	809.97
443926	4440	809.62
444326	4444	809.556
444726	4448	809.953
445126	4452	809.961
445526	4456	809.91
445926	4460	809.567
446326	4464	809.696
446726	4468	809.99
447126	4472	809.737
447526	4476	809.771
447926	4480	809.857
448326	4484	809.99
448726	4488	809.956
449126	4492	809.682
449526	4496	809.753
449926	4500	809.882
450326	4504	809.935
450726	4508	809.543
451126	4512	809.64
451526	4516	809.918
451926	4520	809.557
452326	4524	809.703
452726	4528	809.603
453126	4532	809.806
453526	4536	809.831
453926	4540	809.647
454326	4544	809.707
454726	4548	809.76
455126	4552	809.888
455526	4556	809.823
455926	4560	809.551
456326	4564	809.768
456726	4568	809.801
457126	4572	809.854
457526	4576	809.622
457926	4580	809.904
458326	4584	809.984
458726	4588	809.852
459126	4592	809.657
459526	4596	809.659
459926	4600	809.951
460326	4604	809.768
460726	4608	809.594
461126	4612	809.637
461526	4616	810.009
461926	4620	809.986
462326	4624	809.634
462726	4628	809.784
463126	4632	809.796
463526	4636	810.003
463926	4640	809.653
464326	4644	809.612
464726	4648	809.855
465126	4652	809.818
465526	4656	809.818
465926	4660	809.596
466326	4664	809.992
466726	4668	809.887
467126	4672	809.747
467526	4676	809.982
467926	4680	809.824
468326	4684	810.021
468726	4688	809.928
469126	4692	809.659
469526	4696	809.56
469926	4700	809.642
470326	4704	809.472
470726	4708	809.268
471126	4712	809.483
471526	4716	809.639
471926	4720	809.488
472326	4724	809.324
472726	4728	809.346
473126	4732	809.531
473526	4736	809.665
473926	4740	809.221
474326	4744	809.354
474726	4748	809.604
475126	4752	809.725
475526	4756	809.298
475926	4760	809.346
476326	4764	809.414
476726	4768	809.726
477126	4772	809.179
477526	4776	808.93
477926	4780	808.921
478326	4784	808.915
478726	4788	808.808
479126	4792	808.642
479526	4796	808.658
479926	4800	808.817
480326	4804	808.637
480726	4808	808.303
481126	4812	808.255
481526	4816	808.55
481926	4820	808.268
482326	4824	808.19
482726	4828	808.001
483126	4832	808.168
483526	4836	808.065
483926	4840	807.79
484326	4844	808.018
484726	4848	808.104
485126	4852	808.109
485526	4856	807.808
485926	4860	807.773
486326	4864	807.875
486726	4868	807.545
487126	4872	807.491
487526	4876	807.493
487926	4880	807.446
488326	4884	807.073
488726	4888	806.517
489126	4892	806.578
489526	4896	806.618
489926	4900	806.625
490326	4904	806.051
490726	4908	805.732
491126	4912	805.769
491526	4916	805.95
491926	4920	805.782
492326	4924	805.491
492726	4928	805.397
493126	4932	805.401
493526	4936	805.227
493926	4940	804.611
494326	4944	804.292
494726	4948	804.3
495126	4952	803.93
495526	4956	803.867
495926	4960	803.568
496326	4964	803.741
496726	4968	803.411
497126	4972	802.541
497526	4976	802.401
497926	4980	802.224
498326	4984	802.029
498726	4988	801.262
499126	4992	801.039
499526	4996	801.003
499926	5000	800.789
500326	5004	800.406
500726	5008	799.581
501126	5012	799.06
501526	5016	798.619
501926	5020	798.021
502326	5024	797.484
502726	5028	797.248
503126	5032	796.773
503526	5036	795.713
503926	5040	795.232
504326	5044	794.774
504726	5048	794.527
505126	5052	793.846
505526	5056	792.897
505926	5060	792.51
506326	5064	792.071
506726	5068	791.146
507126	5072	790.305
507526	5076	789.519
507926	5080	788.877
508326	5084	787.65
508726	5088	786.833
509126	5092	786.1
509526	5096	785.625
509926	5100	784.678
510326	5104	783.414
510726	5108	782.397
511126	5112	781.277
511526	5116	780.295
511926	5120	779.107
512326	5124	778.164
512726	5128	776.967
513126	5132	775.807
513526	5136	774.284
513926	5140	773.029
514326	5144	771.909
514726	5148	770.47
515126	5152	768.689
515526	5156	767.018
515926	5160	765.78
516326	5164	764.228
516726	5168	762.002
517126	5172	759.994
517526	5176	758.551
517926	5180	756.627
518326	5184	754.416
518726	5188	752.146
519126	5192	749.846
519526	5196	747.553
519926	5200	744.97
520326	5204	741.657
520726	5208	738.75
521126	5212	735.832
521526	5216	732.157
521926	5220	728.427
522326	5224	724.695
522726	5228	721.03
523126	5232	716.246
523526	5236	710.395
523926	5240	701.967
524326	5244	284.495
524726	5248	63.8026
525126	5252	12.4778
525526	5256	3.545730
525926	5260	1.961051
526326	5264	1.915440
526726	5268	1.757754